sub	sess	t	loc	co1	co2	or	resp	rt
2	1	1	2	1.0000	1.0000	1	1	3.831
2	1	2	1	1.0000	1.0000	1	1	1.793
2	1	3	1	1.0000	1.0000	1	1	2.992
2	1	4	2	1.0000	1.0000	0	1	1.284
2	1	5	1	1.0000	1.0000	0	1	1.727
2	1	6	2	1.0000	1.0000	0	0	2.202
2	1	7	2	1.0000	1.0000	1	1	1.186
2	1	8	1	1.0000	1.0000	0	1	1.298
2	1	9	2	1.0000	1.0000	1	1	1.736
2	1	10	1	1.0000	1.0000	1	1	1.140
2	1	11	1	1.0000	1.0000	0	1	1.714
2	1	12	1	1.0000	1.0000	0	1	1.202
2	1	13	2	1.0000	1.0000	0	1	0.868
2	1	14	1	1.0000	1.0000	1	1	0.809
2	1	15	2	1.0000	1.0000	0	1	0.967
2	1	16	1	1.0000	1.0000	0	1	0.739
2	1	17	2	1.0000	1.0000	0	1	0.828
2	1	18	2	1.0000	1.0000	0	1	0.757
2	1	19	2	1.0000	1.0000	1	1	0.791
2	1	20	2	1.0000	1.0000	1	1	0.804
2	1	21	1	1.0000	1.0000	0	1	0.827
2	1	22	2	1.0000	1.0000	1	0	1.675
2	1	23	2	1.0000	1.0000	1	1	0.731
2	1	24	1	1.0000	1.0000	1	1	1.310
2	1	25	1	1.0000	1.0000	1	1	1.077
2	1	26	2	1.0000	1.0000	0	1	0.738
2	1	27	2	1.0000	1.0000	0	1	0.694
2	1	28	1	1.0000	1.0000	0	1	0.761
2	1	29	1	0.2500	0.2500	0	1	0.761
2	1	30	2	0.2629	0.2629	1	1	0.761
2	1	31	2	0.2758	0.2758	1	1	0.761
2	1	32	2	0.2887	0.2887	1	1	0.761
2	1	33	1	0.3016	0.3016	1	1	0.761
2	1	34	1	0.3145	0.3145	0	1	0.761
2	1	35	1	0.3274	0.3274	0	1	0.761
2	1	36	2	0.3403	0.3403	0	1	0.761
2	1	37	2	0.3532	0.3532	1	1	0.761
2	1	38	1	0.3661	0.3661	1	1	0.761
2	1	39	2	0.3790	0.3790	1	1	0.761
2	1	40	2	0.3919	0.3919	1	1	0.761
2	1	41	2	0.4048	0.4048	0	1	0.761
2	1	42	1	0.4177	0.4177	0	1	0.761
2	1	43	2	0.4306	0.4306	1	1	0.761
2	1	44	2	0.4435	0.4435	0	1	0.761
2	1	45	1	0.4565	0.4565	0	1	0.761
2	1	46	1	0.4694	0.4694	1	1	0.761
2	1	47	1	0.4823	0.4823	0	1	0.761
2	1	48	2	0.4952	0.4952	1	1	0.761
2	1	49	2	0.5081	0.5081	0	1	0.761
2	1	50	2	0.5210	0.5210	1	1	0.761
2	1	51	1	0.5339	0.5339	1	1	0.761
2	1	52	1	0.5468	0.5468	0	1	0.761
2	1	53	2	0.5597	0.5597	1	1	0.761
2	1	54	1	0.5726	0.5726	1	1	0.761
2	1	55	1	0.5855	0.5855	1	1	0.761
2	1	56	1	0.5984	0.5984	1	1	0.761
2	1	57	2	0.6113	0.6113	0	1	0.761
2	1	58	1	0.6242	0.6242	1	1	0.761
2	1	59	1	0.6371	0.6371	0	1	0.761
2	1	60	2	0.6500	0.6500	0	1	0.761
2	1	61	1	0.2500	0.2500	0	1	0.761
2	1	62	1	0.2629	0.2629	1	1	0.761
2	1	63	1	0.2758	0.2758	0	1	0.761
2	1	64	1	0.2887	0.2887	1	1	0.761
2	1	65	2	0.3016	0.3016	1	1	0.761
2	1	66	2	0.3145	0.3145	1	1	0.761
2	1	67	2	0.3274	0.3274	1	1	0.761
2	1	68	2	0.3403	0.3403	0	1	0.761
2	1	69	1	0.3532	0.3532	0	1	0.761
2	1	70	2	0.3661	0.3661	0	1	0.761
2	1	71	2	0.3790	0.3790	0	1	0.761
2	1	72	1	0.3919	0.3919	1	1	0.761
2	1	73	2	0.4048	0.4048	1	1	0.761
2	1	74	2	0.4177	0.4177	0	1	0.761
2	1	75	2	0.4306	0.4306	1	1	0.761
2	1	76	1	0.4435	0.4435	1	1	0.761
2	1	77	2	0.4565	0.4565	0	1	0.761
2	1	78	1	0.4694	0.4694	0	1	0.761
2	1	79	1	0.4823	0.4823	1	1	0.761
2	1	80	1	0.4952	0.4952	0	1	0.761
2	1	81	1	0.5081	0.5081	0	1	0.761
2	1	82	2	0.5210	0.5210	0	1	0.761
2	1	83	1	0.5339	0.5339	0	1	0.761
2	1	84	2	0.5468	0.5468	0	1	0.761
2	1	85	2	0.5597	0.5597	0	1	0.761
2	1	86	1	0.5726	0.5726	1	1	0.761
2	1	87	2	0.5855	0.5855	0	1	0.761
2	1	88	1	0.5984	0.5984	1	1	0.761
2	1	89	1	0.6113	0.6113	1	1	0.761
2	1	90	1	0.6242	0.6242	0	1	0.761
2	1	91	2	0.6371	0.6371	0	1	0.761
2	1	92	2	0.6500	0.6500	1	1	0.761
2	1	93	1	0.1681	0.6500	0	1	0.761
2	1	94	1	0.1565	0.6500	1	1	0.761
2	1	95	2	0.1565	0.1673	0	1	0.761
2	1	96	1	0.1448	0.1673	0	1	0.761
2	1	97	1	0.1329	0.1673	1	1	0.761
2	1	98	2	0.1329	0.1573	1	1	0.761
2	1	99	1	0.1210	0.1573	0	1	0.761
2	1	100	2	0.1210	0.1469	1	1	0.761
2	1	101	1	0.1091	0.1469	1	1	0.761
2	1	102	2	0.1091	0.1364	0	1	0.761
2	1	103	1	0.0972	0.1364	1	1	0.761
2	1	104	2	0.0972	0.1255	1	1	0.761
2	1	105	2	0.0972	0.1144	0	1	0.761
2	1	106	1	0.1324	0.1144	0	1	0.761
2	1	107	2	0.1324	0.1031	0	1	0.761
2	1	108	2	0.1324	0.1355	1	1	0.761
2	1	109	2	0.1324	0.1267	1	1	0.761
2	1	110	1	0.1227	0.1267	1	1	0.761
2	1	111	1	0.1133	0.1267	1	1	0.761
2	1	112	1	0.1040	0.1267	0	1	0.761
2	1	113	2	0.1040	0.1178	0	1	0.761
2	1	114	1	0.0950	0.1178	0	1	0.761
2	1	115	1	0.0861	0.1178	0	1	0.761
2	1	116	1	0.0775	0.1178	0	1	0.761
2	1	117	2	0.0775	0.1090	0	1	0.761
2	1	118	1	0.0692	0.1090	0	1	0.761
2	1	119	1	0.0611	0.1090	0	1	0.761
2	1	120	1	0.0534	0.1090	1	1	0.761
2	1	121	1	0.0458	0.1090	1	1	0.761
2	1	122	2	0.0458	0.1002	1	1	0.761
2	1	123	2	0.0458	0.0916	1	1	0.761
2	1	124	2	0.0458	0.1166	0	1	0.761
2	1	125	1	0.0685	0.1166	1	1	0.761
2	1	126	2	0.0685	0.1090	1	1	0.761
2	1	127	1	0.0615	0.1090	1	1	0.761
2	1	128	2	0.0615	0.1017	0	1	0.761
2	1	129	1	0.0548	0.1017	1	1	0.761
2	1	130	2	0.0548	0.0945	1	1	0.761
2	1	131	1	0.0482	0.0945	0	1	0.761
2	1	132	2	0.0482	0.0874	0	1	0.761
2	1	133	2	0.0482	0.0804	0	1	0.761
2	1	134	2	0.0482	0.0738	0	1	0.761
2	1	135	2	0.0482	0.0673	1	1	0.761
2	1	136	2	0.0482	0.0609	1	1	0.761
2	1	137	2	0.0482	0.0549	1	1	0.761
2	1	138	2	0.0482	0.0489	1	1	0.761
2	1	139	1	0.0420	0.0489	1	1	0.761
2	1	140	1	0.0359	0.0489	1	1	0.761
2	1	141	2	0.0359	0.0432	0	1	0.761
2	1	142	2	0.0359	0.0376	1	1	0.761
2	1	143	1	0.0542	0.0376	0	1	0.761
2	1	144	1	0.0712	0.0376	0	1	0.761
2	1	145	1	0.0885	0.0376	0	1	0.761
2	1	146	1	0.0828	0.0376	1	1	0.761
2	1	147	2	0.0828	0.0322	0	1	0.761
2	1	148	2	0.0828	0.0270	1	1	0.761
2	1	149	2	0.0828	0.0220	0	1	0.761
2	1	150	2	0.0828	0.0365	0	1	0.761
2	1	151	2	0.0828	0.0316	0	1	0.761
2	1	152	2	0.0828	0.0270	1	1	0.761
2	1	153	1	0.0992	0.0270	1	1	0.761
2	1	154	1	0.0937	0.0270	0	1	0.761
2	1	155	1	0.1094	0.0270	0	1	0.761
2	1	156	1	0.1259	0.0270	1	1	0.761
